Folder: microplastics2021/data/refractive_index/original

Note: README.md
# Direct radiative effects of airborne microplastics

**Authors:** Laura E. Revell<sup>1</sup>, Peter Kuma<sup>1,*</sup>,
Eric C. Le Ru<sup>2</sup>, Walter R. C. Somerville<sup>2</sup>,
Sally K. Gaw<sup>1</sup>

<sup>1</sup>School of Physical and Chemical Sciences, University of Canterbury,
Christchurch 8140, New Zealand.\
<sup>2</sup>The MacDiarmid Institute for Advanced Materials and Nanotechnology,
School of Chemical and Physical Sciences, Victoria University of Wellington,
Wellington 6140, New Zealand.\
<sup>*</sup>Now at: Department of Meteorology, Stockholm University, Stockholm
SE-106 91, Sweden.

This repository contains programs and data accompanying the paper by
Revell et al. (2021), "Direct radiative effects of airborne microplastics".

## Requirements

The programs contained in this repository can be run on a Linux distribution.
They have been tested on the Devuan GNU/Linux 3 (beowulf) Linux distribution
with Python 3.7.3. The original versions of Python packages
used to run the Python scripts are available from the
[Python Package Index (PyPI)](https://pypi.org/):

- numpy 1.20.1
- scipy 1.6.1
- matplotlib 3.3.4
- basemap 1.2.2
- cartopy 0.18.0
- aquarius-time 0.1.0
- pst-format 1.1.1
- ds-format 1.1.0

It is possible to install these packages inside a Python Virtual Environment
(venv) with the command `pip3 install -r requirements.txt`. See Python
documentation on how to set up a virtual environment.

Equivalent Linux distributions such as Ubuntu or Fedora may work equally well.
On Windows, the Windows Subsystem for Linux (WSL) with the Ubuntu distribution
(available from the Microsoft Store), is recommended for running the programs.

The `run_cscatter` and `run_cscatter_average` programs depend on the SOCRATES
radiative transfer code, which is only available to the Unified Model (UM)
Partnership members.

To calculate the optical properties of fibres, R is required (tested on 4.0.2),
as well as MATLAB or octave. The R package provided in
`fibre_optical_property_scripts/Rpathlength_1.1.1.tar.gz` should be installed.

## CIRC cases

Continual Intercomparison of Radiation Codes (CIRC) cases are located
in `data/circ`. Each case contains files extracted from the original input and
output archives of the CIRC case. To process case data and run SOCRATES, use
the following sequence of programs:

- `convert_circ_levels`: Convert levels txt file to NetCDF.
- `prepare_socrates`: Prepare SOCRATES profiles of MP mixing ratio
and get MP aerosol blocks to be inserted into sp_sw_ga7 and sp_lw_ga7.
- `run_socrates`: Run the single column model.
- `plot_profile_all`: Plot the resulting flux and heating rate profiles.

See examples in each program documentation below on how to run it.

## Programs (`bin`)

Below is a list of programs contained in this repository with a brief
description of how to use them. The programs can be executed from the UNIX
command line from the main directory as `bin/<program> <arg>...`, where
`<program>` is the name of the

File: sultanova2009,PAA.csv
"Wavelength (nm)","Refractive index"
436.8,1.506
486.1,1.499
587.6,1.494
632.8,1.492
703,1.491
833,1.489
879,1.488
1052,1.486